[
  {
    "trialNumber": 3,
    "stimulus": "go1",
    "reactionTime": 1400,
    "correct": true,
    "scoreChange": 50,
    "newScore": 150,
    "timestamp": 1742001572604
  },
  {
    "trialNumber": 4,
    "stimulus": "go2",
    "reactionTime": 1011,
    "correct": true,
    "scoreChange": 50,
    "newScore": 200,
    "timestamp": 1742001575141
  },
  {
    "trialNumber": 5,
    "stimulus": "nogo2",
    "reactionTime": 0,
    "correct": true,
    "scoreChange": 50,
    "newScore": 250,
    "timestamp": 1742001579964
  },
  {
    "trialNumber": 6,
    "stimulus": "nogo1",
    "reactionTime": 1491,
    "correct": false,
    "scoreChange": -50,
    "newScore": 200,
    "timestamp": 1742001582684
  },
  {
    "trialNumber": 7,
    "stimulus": "go2",
    "reactionTime": 1241,
    "correct": true,
    "scoreChange": 50,
    "newScore": 250,
    "timestamp": 1742001585764
  },
  {
    "trialNumber": 8,
    "stimulus": "go1",
    "reactionTime": 881,
    "correct": true,
    "scoreChange": 50,
    "newScore": 300,
    "timestamp": 1742001587863
  },
  {
    "trialNumber": 9,
    "stimulus": "go1",
    "reactionTime": 600,
    "correct": true,
    "scoreChange": 50,
    "newScore": 350,
    "timestamp": 1742001590308
  },
  {
    "trialNumber": 10,
    "stimulus": "go2",
    "reactionTime": 1551,
    "correct": true,
    "scoreChange": 50,
    "newScore": 400,
    "timestamp": 1742001593074
  },
  {
    "trialNumber": 11,
    "stimulus": "nogo1",
    "reactionTime": 1291,
    "correct": false,
    "scoreChange": -50,
    "newScore": 350,
    "timestamp": 1742001595880
  },
  {
    "trialNumber": 12,
    "stimulus": "nogo1",
    "reactionTime": 690,
    "correct": false,
    "scoreChange": -50,
    "newScore": 300,
    "timestamp": 1742001598107
  },
  {
    "trialNumber": 13,
    "stimulus": "nogo1",
    "reactionTime": 791,
    "correct": false,
    "scoreChange": -50,
    "newScore": 250,
    "timestamp": 1742001600748
  },
  {
    "trialNumber": 14,
    "stimulus": "nogo1",
    "reactionTime": 931,
    "correct": false,
    "scoreChange": -50,
    "newScore": 200,
    "timestamp": 1742001602902
  },
  {
    "trialNumber": 15,
    "stimulus": "nogo2",
    "reactionTime": 571,
    "correct": false,
    "scoreChange": -50,
    "newScore": 150,
    "timestamp": 1742001605298
  },
  {
    "trialNumber": 16,
    "stimulus": "nogo2",
    "reactionTime": 470,
    "correct": false,
    "scoreChange": -50,
    "newScore": 100,
    "timestamp": 1742001606998
  },
  {
    "trialNumber": 17,
    "stimulus": "go1",
    "reactionTime": 601,
    "correct": true,
    "scoreChange": 50,
    "newScore": 150,
    "timestamp": 1742001609436
  },
  {
    "trialNumber": 18,
    "stimulus": "nogo2",
    "reactionTime": 582,
    "correct": false,
    "scoreChange": -50,
    "newScore": 100,
    "timestamp": 1742001611241
  },
  {
    "trialNumber": 19,
    "stimulus": "go2",
    "reactionTime": 651,
    "correct": true,
    "scoreChange": 50,
    "newScore": 150,
    "timestamp": 1742001613714
  },
  {
    "trialNumber": 20,
    "stimulus": "go1",
    "reactionTime": 1511,
    "correct": true,
    "scoreChange": 50,
    "newScore": 200,
    "timestamp": 1742001616449
  },
  {
    "trialNumber": 21,
    "stimulus": "go1",
    "reactionTime": 812,
    "correct": true,
    "scoreChange": 50,
    "newScore": 250,
    "timestamp": 1742001618782
  },
  {
    "trialNumber": 22,
    "stimulus": "nogo2",
    "reactionTime": 2331,
    "correct": false,
    "scoreChange": -50,
    "newScore": 200,
    "timestamp": 1742001622640
  },
  {
    "trialNumber": 23,
    "stimulus": "go1",
    "reactionTime": 1161,
    "correct": true,
    "scoreChange": 50,
    "newScore": 250,
    "timestamp": 1742001625636
  }
]